#   1 X_IMAGE                Object position along x                                    [pixel]
#   2 Y_IMAGE                Object position along y                                    [pixel]
#   3 FLUX_ISO               Isophotal flux                                             [count]
#   4 FLUXERR_ISO            RMS error for isophotal flux                               [count]
#   5 FLUX_APER              Flux vector within fixed circular aperture(s)              [count]
#   6 FLUXERR_APER           RMS error vector for aperture flux(es)                     [count]
#   7 FLUX_AUTO              Flux within a Kron-like elliptical aperture                [count]
#   8 FLUXERR_AUTO           RMS error for AUTO flux                                    [count]
#   9 A_IMAGE                Profile RMS along major axis                               [pixel]
#  10 B_IMAGE                Profile RMS along minor axis                               [pixel]
#  11 THETA_IMAGE            Position angle (CCW/x)                                     [deg]
#  12 KRON_RADIUS            Kron apertures in units of A or B                         
#  13 FWHM_IMAGE             FWHM assuming a gaussian core                              [pixel]
#  14 FLUX_RADIUS            Fraction-of-light radii                                    [pixel]
#  15 MU_MAX                 Peak surface brightness above background                   [mag * arcsec**(-2)]
#  16 ISOAREAF_IMAGE         Isophotal area (filtered) above Detection threshold        [pixel**2]
#  17 CLASS_STAR             S/G classifier output                                     
#  18 FLAGS                  Extraction flags                                          
#  19 NUMBER_ASSOC           Number of ASSOCiated IDs                                  
#  20 VECTOR_ASSOC           ASSOCiated parameter vector                               
 17850.9277    816.3987     23203.41     349.7607     9728.835     123.9814     25745.56     452.0795    24.542    12.386  73.80  3.85    97.51     21.171  22.1781      8229  0.000   2          1        16898
 18695.7637    447.0997     86106.82     409.1183      53136.8     185.0731     83655.28     360.2008    24.327     7.312  70.39  3.50    12.16     10.837  19.0799      9526  0.029   2          1        27065
 15447.5801    344.0771     412227.5     956.5057       159597     283.7903     404076.1      859.788    47.918    22.403 -25.63  3.50    10.72     23.103  18.2173     53928  0.029   2          1         8450
  6979.1465    403.6655     142836.8     485.2142     56476.75     188.9454       141949     475.0526    28.564    10.934  22.47  3.50    40.08     20.216  20.4129     12710  0.029   2          1         6344
 15584.0166    264.9616     25374.33     274.5637     16143.43     134.7724      27032.2     317.3229    18.732     9.344 -77.45  3.63    13.50     11.899  20.5511      4716  0.029   3          1         1309
 12754.2100    340.6166     6163.497     142.6793     5230.857     115.8475     6623.643     164.1621    12.783     3.513  79.43  3.54    29.70      8.678  21.8277      1295  0.027   0          1        92633
 17052.4707    242.0928     49623.89     302.3648     27297.76     151.6996     50097.65     318.3394    17.631     8.609  74.21  3.50    37.17     15.013  21.2776      5122  0.029   0          1         6569
  3990.7485    242.6893     31485.63     289.5328     17588.89     137.0882      32616.8     321.1048    18.356     9.021  45.94  3.54    26.74     14.935  21.2302      5143  0.028   0          1        40287
 19414.1973    226.4494       175151     453.1641     106083.5     239.3073     173560.2     406.7576    13.482    12.729  -3.56  3.50    21.26     13.357  19.8016      9474  0.029   0          1       308729
 15084.5361    115.5885 1.013262e+07        2e+15      8931407     1973.414      9611398     2057.719    11.578     9.116   2.62  3.50     4.77      2.866  12.3210     34917  0.999   8          2       408308
 11136.3193    192.9285     46765.33     337.8287     29610.52      154.982     46073.15     320.2335    21.802     7.210 -76.48  3.50    10.81     10.702  19.8326      6878  0.029   0          1        76901
 18480.6016    201.1778     19397.76     216.1002        17115     136.3386     18963.58     179.4583     8.255     5.545  85.20  3.50     5.81      4.771  19.7648      2806  0.819   0          1       309667
  1941.5677     74.9391 2.534194e+07        4e+15 2.241279e+07     3123.433 2.408391e+07     3243.657    11.043     8.633   2.97  3.50     4.63      2.837  11.3110     38493  0.999   2          1       410311
  5604.8237    324.0262 1.199606e+07 3.464102e+15 1.054165e+07     2143.466 1.140505e+07     2240.981    12.149     9.940  -0.85  3.50     4.68      2.883  12.0995     37987  0.999   0          1       412709
  5398.6807    161.6698     8089.514     183.0437     6349.958      117.915     8200.206     244.2704     9.479     8.865  67.02  3.96    35.03     10.022  21.9762      2199  0.011   2          1        12695

